Folder: FPrakt/MP6/data/DSC

Note: MP6/data/DSC/kissinger_fit.txt
20 409.53
50 419.84
100 429.67

File: 20K-mt.txt
Filename:	C:\Program Files\Pyris\Data\F-Praktikum\WS1819\BA-C-04\Pd-Ni-P_20k-m.dsd

Temperature (°C)	Heat Flow Endo Up (mW)
200.07	0.1641
201.27	0.2019
202.47	0.3936
203.67	0.3707
204.87	0.3577
206.07	0.3614
207.27	0.3751
208.47	0.3853
209.67	0.3986
210.87	0.4107
212.07	0.4184
213.27	0.4221
214.47	0.4215
215.67	0.4277
216.87	0.4320
218.07	0.4358
219.27	0.4348
220.47	0.4311
221.67	0.4200
222.87	0.4277
224.07	0.4324
225.27	0.4305
226.47	0.4280
227.67	0.4258
228.87	0.4231
230.07	0.4193
231.27	0.4125
232.47	0.4076
233.67	0.3977
234.87	0.3847
236.07	0.3794
237.27	0.3710
238.47	0.3655
239.67	0.3568
240.87	0.3497
242.07	0.3419
243.27	0.3336
244.47	0.3295
245.67	0.3221
246.87	0.3125
248.07	0.3072
249.27	0.2964
250.47	0.2914
251.67	0.2852
252.87	0.2797
254.07	0.2732
255.27	0.2685
256.47	0.2663
257.67	0.2614
258.87	0.2571
260.07	0.2555
261.27	0.2540
262.47	0.2521
263.67	0.2484
264.87	0.2444
266.07	0.2413
267.27	0.2410
268.47	0.2422
269.67	0.2419
270.87	0.2413
272.07	0.2444
273.27	0.2462
274.47	0.2468
275.67	0.2465
276.87	0.2502
278.07	0.2527
279.27	0.2561
280.47	0.2577
281.67	0.2626
282.87	0.2685
284.07	0.2735
285.27	0.2784
286.47	0.2865
287.67	0.2930
288.87	0.2973
290.07	0.3094
291.27	0.3224
292.47	0.2890
293.67	0.3490
294.87	0.3704
296.07	0.3893
297.27	0.4101
298.47	0.4330
299.67	0.4612
300.87	0.4900
302.07	0.5212
303.27	0.5569
304.47	0.6018
305.67	0.6454
306.87	0.6950
308.07	0.7495
309.27	0.8065
310.47	0.8715
311.67	0.9446
312.87	1.0165
314.07	1.0920
315.27	1.1654
316.47	1.2391
317.67	1.3026
318.87	1.3568
320.07	1.3983
321.27	1.4147
322.47	1.4144
323.67	1.4027
324.87	1.3841
326.07	1.3615
327.27	1.3401
328.47	1.3259
329.67	1.3116
330.87	1.2989
332.07	1.2930
333.27	1.2884
334.47	1.2800
335.67	1.2726
336.87	1.2679
338.07	1.2645
339.27	1.2590
340.47	1.2562
341.67	1.2556
342.87	1.2525
344.07	1.2478
345.27	1.2475
346.47	1.2432
347.67	1.2413
348.87	1.2398
350.07	1.2410
351.27	1.2419
352.47	1.2410
353.67	1.2404
354.87	1.2453
356.07	1.2475
357.27	1.2357
358.47	1.2317
359.67	1.2193
360.87	1.2103
362.07	1.2069
363.27	1.2038
364.47	1.1930
365.67	1.1852
366.87	1.1747
368.07	1.1614
369.27	1.1490
370.47	1.1335
371.67	1.1143
372.87	1.0920
374.07	1.0710
375.27	1.0369
376.47	0.9969
377.67	0.9412
378.87	0.8734
380.07	0.7894
381.27	0.6919
382.47	0.5637
383.67	0.4020
384.87	0.1988
386.07	-0.0424
387.27	-0.3295
388.47	-0.6634
389.67	-1.0313
390.87	-1.4497
392.07	-1.9239
393.27	-2.4473
394.47	-3.0203
395.67	-3.6623
396.87	-4.3836
398.07	-5.1978
399.27	-6.1217
400.47	-7.1824
401.67	-8.3906
402.87	-9.7369
404.07	-11.1953
405.27	-12.6732
406.47	-13.9634
407.67	-14.8854
408.87	-15.3556
410.07	-15.3491
411.27	-14.5187
412.47	-13.4729
413.67	-12.9882
414.87	-12.9207
416.07	-12.4443
417.27	-10.1194
418.47	-5.7339
419.67	-1.9564
420.87	-0.5559
422.07	-0.2800
423.27	-0.2295
424.47	-0.2239
425.67	-0.2419
426.87	-0.2763
428.07	-0.3283
429.27	-0.3896
430.47	-0.4791
431.67	-0.5888
432.87	-0.7219
434.07	-0.8752
435.27	-1.0480
436.47	-1.2447
437.67	-1.4575
438.87	-1.6826
440.07	-1.9097
441.27	-2.1379
442.47	-2.3581
443.67	-2.5603
444.87	-2.7267
446.07	-2.8484
447.27	-2.9181
448.47	-2.9159
449.67	-2.8564
450.87	-2.7384
452.07	-2.5684
453.27	-2.3002
454.47	-2.1128
455.67	-1.8725
456.87	-1.6328
458.07	-1.4036
459.27	-1.2023
460.47	-1.0223
461.67	-0.8582
462.87	-0.7256
464.07	-0.6145
465.27	-0.5150
466.47	-0.4420
467.67	-0.3865
468.87	-0.3367
470.07	-0.2982
471.27	-0.2598
472.47	-0.2214
473.67	-0.1914
474.87	-0.1700
476.07	-0.1508
477.27	-0.1301
478.47	-0.1115
479.67	-0.1034
480.87	-0.0895
482.07	-0.0725
483.27	-0.0678
484.47	-0.0582
485.67	-0.0554
486.87	-0.0536
488.07	-0.0458
489.27	-0.0421
490.47	-0.0325
491.67	-0.0257
492.87	-0.0186
494.07	-0.0084
495.27	0.0077
496.47	0.0161
497.67	0.0260
498.87	0.0387
500.07	0.0499
501.27	0.0666
502.47	0.0818
503.67	0.0994
504.87	0.1239
506.07	0.1474
507.27	0.1753
508.47	0.2019
509.67	0.2406
510.87	0.2759
512.07	0.3227
513.27	0.3726
514.47	0.4311
515.67	0.4968
516.87	0.5714
518.07	0.6454
519.27	0.7356
520.47	0.8210
521.67	0.9164
522.87	0.9548
524.07	0.9908
525.27	0.9877
526.47	0.9393
527.67	0.8461
528.87	0.7244
530.07	0.5844
531.27	0.4516
532.47	0.3425
533.67	0.2645
534.87	0.2038
536.07	0.1778
537.27	0.1617
538.47	0.1474
539.67	0.1363
540.87	0.1236
542.07	0.1149
543.27	0.0997
544.47	0.1000
545.67	0.0991
546.87	0.0911
548.07	0.0892
549.27	0.0849
550.00	0.0858

File: 50K-mt.txt
Filename:	C:\Program Files\Pyris\Data\F-Praktikum\WS1819\BA-C-04\Pd-Ni-P_50k-m.dsd

Temperature (°C)	Heat Flow Endo Up (mW)
200.00	0.0204
201.34	0.0148
202.67	-0.1110
204.00	-0.2418
205.34	-0.1958
206.67	-0.0387
208.00	0.1179
209.34	0.2250
210.67	0.2887
212.00	0.3333
213.34	0.5714
214.67	1.0162
216.00	0.7894
217.34	0.5918
218.67	0.5313
220.00	0.5276
221.34	0.5344
222.67	0.5461
224.00	0.5597
225.34	0.5693
226.67	0.5754
228.00	0.5797
229.34	0.5807
230.67	0.5856
232.00	0.5844
233.34	0.5853
234.67	0.5865
236.00	0.5838
237.34	0.5779
238.67	0.5733
240.00	0.5662
241.34	0.5523
242.67	0.5356
244.00	0.5140
245.34	0.4856
246.67	0.4662
248.00	0.4495
249.34	0.4276
250.67	0.4025
252.00	0.3751
253.34	0.3482
254.67	0.3167
256.00	0.2831
257.34	0.2473
258.67	0.2078
260.00	0.1883
261.34	0.1723
262.67	0.1479
264.00	0.1253
265.34	0.1050
266.67	0.0877
268.00	0.0691
269.34	0.0506
270.67	0.0358
272.00	0.0179
273.34	9.3349e-004
274.67	-0.0105
276.00	-0.0191
277.34	-0.0346
278.67	-0.0503
280.00	-0.0531
281.34	-0.0506
282.67	-0.0664
284.00	-0.0824
285.34	-0.0781
286.67	-0.0596
288.00	-0.0426
289.34	-0.0293
290.67	-0.0157
292.00	0.0019
293.34	0.0259
294.67	0.0553
296.00	0.0936
297.34	0.1343
298.67	0.1704
300.00	0.2111
301.34	0.2562
302.67	0.3075
304.00	0.3723
305.34	0.4492
306.67	0.5368
308.00	0.6285
309.34	0.7335
310.67	0.8508
312.00	0.9841
313.34	1.1329
314.67	1.2953
316.00	1.4768
317.34	1.6626
318.67	1.8590
320.00	2.0572
321.34	2.2532
322.67	2.4415
324.00	2.6014
325.34	2.7239
326.67	2.7993
328.00	2.8202
329.34	2.7980
330.67	2.7551
332.00	2.6995
333.34	2.6406
334.67	2.5872
336.00	2.5477
337.34	2.5162
338.67	2.4887
340.00	2.4631
341.34	2.4439
342.67	2.4291
344.00	2.4140
345.34	2.4069
346.67	2.4072
348.00	2.4078
349.34	2.4081
350.67	2.4128
352.00	2.4140
353.34	2.4088
354.67	2.4051
356.00	2.3986
357.34	2.3912
358.67	2.3893
360.00	2.3884
361.34	2.3887
362.67	2.3856
364.00	2.3726
365.34	2.3637
366.67	2.3554
368.00	2.3458
369.34	2.3378
370.67	2.3424
372.00	2.3535
373.34	2.3658
374.67	2.3745
376.00	2.3850
377.34	2.3729
378.67	2.3411
380.00	2.2992
381.34	2.2708
382.67	2.2451
384.00	2.1896
385.34	2.1059
386.67	1.9898
388.00	1.8411
389.34	1.6558
390.67	1.4351
392.00	1.1789
393.34	0.8748
394.67	0.4828
396.00	-0.0167
397.34	-0.6560
398.67	-1.4277
400.00	-2.3396
401.34	-3.4167
402.67	-4.6703
404.00	-6.1150
405.34	-7.7659
406.67	-9.6496
408.00	-11.8065
409.34	-14.2785
410.67	-17.0839
412.00	-20.2916
413.34	-24.0003
414.67	-28.1930
416.00	-32.6198
417.34	-36.6489
418.67	-39.4191
420.00	-40.1711
421.34	-38.7048
422.67	-35.7907
424.00	-32.8226
425.34	-30.7775
426.67	-29.4883
428.00	-27.6670
429.34	-23.1709
430.67	-15.3161
432.00	-7.8870
433.34	-3.5952
434.67	-1.7461
436.00	-1.0530
437.34	-0.8103
438.67	-0.7514
440.00	-0.7906
441.34	-0.9005
442.67	-1.0626
444.00	-1.2716
445.34	-1.5395
446.67	-1.8769
448.00	-2.2835
449.34	-2.7641
450.67	-3.3192
452.00	-3.9461
453.34	-4.6280
454.67	-5.3405
456.00	-6.0610
457.34	-6.7506
458.67	-7.3699
460.00	-7.8709
461.34	-8.2040
462.67	-8.3333
464.00	-8.2444
465.34	-7.9410
466.67	-7.4591
468.00	-6.8488
469.34	-6.1672
470.67	-5.4606
472.00	-4.7682
473.34	-4.1239
474.67	-3.4701
476.00	-2.8203
477.34	-2.3897
478.67	-2.0871
480.00	-1.8445
481.34	-1.6439
482.67	-1.4713
484.00	-1.3277
485.34	-1.2021
486.67	-1.1015
488.00	-1.0203
489.34	-0.9567
490.67	-0.8999
492.00	-0.8409
493.34	-0.7916
494.67	-0.7542
496.00	-0.7224
497.34	-0.6869
498.67	-0.6471
500.00	-0.6116
501.34	-0.5644
502.67	-0.5131
504.00	-0.4770
505.34	-0.4653
506.67	-0.4659
508.00	-0.4689
509.34	-0.4671
510.67	-0.4566
512.00	-0.4347
513.34	-0.4094
514.67	-0.3785
516.00	-0.3270
517.34	-0.2643
518.67	-0.1896
520.00	-0.1056
521.34	0.0021
522.67	0.1349
524.00	0.3016
525.34	0.4970
526.67	0.7053
528.00	0.9261
529.34	1.1727
530.67	1.4181
532.00	1.6191
533.34	1.7463
534.67	1.7883
536.00	1.7089
537.34	1.5126
538.67	1.2311
540.00	0.8989
541.34	0.5816
542.67	0.3204
544.00	0.1293
545.34	-0.0040
546.67	-0.0834
548.00	-0.1210
549.34	-0.1445
550.00	-0.1584

File: 100K-mt.txt
Filename:	C:\Program Files\Pyris\Data\F-Praktikum\WS1819\BA-C-04\Pd-Ni-P_100k-m.dsd

Temperature (°C)	Heat Flow Endo Up (mW)
200.33	0.0699
201.67	0.0721
203.00	0.0915
204.33	0.2134
205.67	0.5254
207.00	0.9633
208.33	1.3709
209.67	1.6365
211.00	1.7370
212.33	1.7061
213.67	1.5988
215.00	1.4707
216.33	1.3573
217.67	1.2719
219.00	1.2138
220.33	1.1819
221.67	1.1708
223.00	1.1695
224.33	1.1748
225.67	1.1859
227.00	1.2020
228.33	1.2224
229.67	1.2425
231.00	1.2636
232.33	1.2861
233.67	1.3081
235.00	1.3266
236.33	1.3433
237.67	1.3517
239.00	1.3501
240.33	1.3384
241.67	1.3316
243.00	1.3285
244.33	1.3263
245.67	1.3285
247.00	1.3316
248.33	1.3303
249.67	1.3245
251.00	1.3201
252.33	1.3174
253.67	1.3084
255.00	1.2923
256.33	1.2700
257.67	1.2419
259.00	1.2057
260.33	1.1603
261.67	1.1077
263.00	1.0523
264.33	0.9905
265.67	0.9252
267.00	0.8591
268.33	0.7910
269.67	0.7221
271.00	0.6553
272.33	0.5910
273.67	0.5291
275.00	0.4685
276.33	0.4094
277.67	0.3535
279.00	0.3012
280.33	0.2557
281.67	0.2152
283.00	0.1794
284.33	0.1494
285.67	0.1237
287.00	0.1030
288.33	0.0866
289.67	0.0751
291.00	0.0693
292.33	0.0714
293.67	0.0832
295.00	0.1024
296.33	0.1265
297.67	0.1574
299.00	0.1948
300.33	0.2390
301.67	0.2916
303.00	0.3513
304.33	0.4224
305.67	0.5127
307.00	0.6194
308.33	0.7372
309.67	0.8634
311.00	1.0022
312.33	1.1600
313.67	1.3396
315.00	1.5428
316.33	1.7735
317.67	2.0336
319.00	2.3233
320.33	2.6387
321.67	2.9811
323.00	3.3457
324.33	3.7242
325.67	4.1082
327.00	4.4849
328.33	4.8359
329.67	5.1414
331.00	5.3835
332.33	5.5508
333.67	5.6430
335.00	5.6680
336.33	5.6418
337.67	5.5815
339.00	5.5051
340.33	5.4241
341.67	5.3449
343.00	5.2728
344.33	5.2116
345.67	5.1578
347.00	5.1074
348.33	5.0601
349.67	5.0165
351.00	4.9750
352.33	4.9348
353.67	4.8977
355.00	4.8656
356.33	4.8322
357.67	4.7960
359.00	4.7586
360.33	4.7193
361.67	4.6794
363.00	4.6374
364.33	4.5910
365.67	4.5424
367.00	4.4991
368.33	4.4639
369.67	4.4317
371.00	4.4033
372.33	4.3856
373.67	4.3770
375.00	4.3742
376.33	4.3717
377.67	4.3658
379.00	4.3637
380.33	4.3828
381.67	4.4351
383.00	4.5254
384.33	4.6401
385.67	4.7474
387.00	4.8189
388.33	4.8340
389.67	4.7765
391.00	4.6457
392.33	4.4636
393.67	4.2554
395.00	4.0238
396.33	3.7616
397.67	3.4712
399.00	3.1400
400.33	2.7238
401.67	2.1857
403.00	1.5335
404.33	0.7756
405.67	-0.1092
407.00	-1.1624
408.33	-2.4390
409.67	-3.9951
411.00	-5.8743
412.33	-8.1064
413.67	-10.7291
415.00	-13.8020
416.33	-17.4191
417.67	-21.7098
419.00	-26.8389
420.33	-32.9924
421.67	-40.3032
423.00	-48.6409
424.33	-57.3722
425.67	-65.5049
427.00	-71.9414
428.33	-75.7537
429.67	-76.7801
431.00	-75.7884
432.33	-73.9571
433.67	-72.0651
435.00	-69.7539
436.33	-65.6939
437.67	-58.7196
439.00	-48.9643
440.33	-37.9737
441.67	-27.6271
443.00	-19.1277
444.33	-12.8443
445.67	-8.5455
447.00	-5.7389
448.33	-3.9784
449.67	-2.9291
451.00	-2.3576
452.33	-2.1099
453.67	-2.0923
455.00	-2.2534
456.33	-2.5707
457.67	-3.0336
459.00	-3.6410
460.33	-4.3931
461.67	-5.2923
463.00	-6.3348
464.33	-7.5105
465.67	-8.8019
467.00	-10.1721
468.33	-11.5677
469.67	-12.9172
471.00	-14.1344
472.33	-15.1237
473.67	-15.7990
475.00	-16.0984
476.33	-15.9948
477.67	-15.5015
479.00	-14.6688
480.33	-13.5812
481.67	-12.3346
483.00	-11.0194
484.33	-9.7117
485.67	-8.4673
487.00	-7.3228
488.33	-6.3014
489.67	-5.4126
491.00	-4.6522
492.33	-4.0115
493.67	-3.4805
495.00	-3.0466
496.33	-2.6913
497.67	-2.3988
499.00	-2.1545
500.33	-1.9532
501.67	-1.7877
503.00	-1.6501
504.33	-1.5351
505.67	-1.4367
507.00	-1.3477
508.33	-1.2651
509.67	-1.1850
511.00	-1.1055
512.33	-1.0273
513.67	-0.9555
515.00	-0.8844
516.33	-0.8142
517.67	-0.7419
519.00	-0.6587
520.33	-0.5659
521.67	-0.4598
523.00	-0.3426
524.33	-0.2158
525.67	-0.0733
527.00	0.0922
528.33	0.2848
529.67	0.5127
531.00	0.7768
532.33	1.0805
533.67	1.4290
535.00	1.8205
536.33	2.2432
537.67	2.6724
539.00	3.0735
540.33	3.4081
541.67	3.6246
543.00	3.6803
544.33	3.5550
545.67	3.2591
547.00	2.8456
548.33	2.3855
549.67	1.9395
550.00	1.8360

File: blei-50k-m-heiz.txt
Filename:	C:\Program Files\Pyris\Data\F-Praktikum\WS1819\BA-C-04\blei_50k-m.dsd

Temperature (°C)	Heat Flow Endo Up (mW)
100.17	0.0022
101.17	0.0130
102.17	0.1806
103.17	0.8353
104.17	1.7929
105.17	2.5585
106.17	2.9240
107.17	2.9904
108.17	2.9261
109.17	2.8416
110.17	2.7798
111.17	2.7477
112.17	2.7394
113.17	2.7431
114.17	2.7480
115.17	2.7493
116.17	2.7440
117.17	2.7338
118.17	2.7227
119.17	2.7116
120.17	2.7002
121.17	2.6891
122.17	2.6767
123.17	2.6634
124.17	2.6486
125.17	2.6329
126.17	2.6171
127.17	2.6036
128.17	2.5915
129.17	2.5779
130.17	2.5628
131.17	2.5471
132.17	2.5316
133.17	2.5171
134.17	2.5026
135.17	2.4890
136.17	2.4764
137.17	2.4619
138.17	2.4464
139.17	2.4310
140.17	2.4149
141.17	2.3973
142.17	2.3782
143.17	2.3594
144.17	2.3430
145.17	2.3279
146.17	2.3134
147.17	2.2989
148.17	2.2844
149.17	2.2695
150.17	2.2550
151.17	2.2405
152.17	2.2260
153.17	2.2100
154.17	2.1924
155.17	2.1769
156.17	2.1630
157.17	2.1498
158.17	2.1362
159.17	2.1211
160.17	2.1041
161.17	2.0883
162.17	2.0735
163.17	2.0602
164.17	2.0467
165.17	2.0346
166.17	2.0251
167.17	2.0189
168.17	2.0121
169.17	2.0007
170.17	1.9902
171.17	1.9821
172.17	1.9744
173.17	1.9658
174.17	1.9574
175.17	1.9488
176.17	1.9395
177.17	1.9287
178.17	1.9173
179.17	1.9047
180.17	1.8905
181.17	1.8778
182.17	1.8676
183.17	1.8587
184.17	1.8516
185.17	1.8432
186.17	1.8349
187.17	1.8272
188.17	1.8204
189.17	1.8139
190.17	1.8059
191.17	1.7982
192.17	1.7904
193.17	1.7846
194.17	1.7778
195.17	1.7695
196.17	1.7630
197.17	1.7556
198.17	1.7469
199.17	1.7398
200.17	1.7336
201.17	1.7265
202.17	1.7198
203.17	1.7130
204.17	1.7074
205.17	1.7028
206.17	1.6969
207.17	1.6910
208.17	1.6864
209.17	1.6827
210.17	1.6756
211.17	1.6685
212.17	1.6654
213.17	1.6651
214.17	1.6636
215.17	1.6626
216.17	1.6614
217.17	1.6589
218.17	1.6552
219.17	1.6494
220.17	1.6426
221.17	1.6355
222.17	1.6299
223.17	1.6231
224.17	1.6154
225.17	1.6105
226.17	1.6065
227.17	1.6015
228.17	1.5960
229.17	1.5907
230.17	1.5855
231.17	1.5808
232.17	1.5778
233.17	1.5747
234.17	1.5716
235.17	1.5691
236.17	1.5663
237.17	1.5626
238.17	1.5583
239.17	1.5540
240.17	1.5509
241.17	1.5487
242.17	1.5441
243.17	1.5407
244.17	1.5395
245.17	1.5370
246.17	1.5330
247.17	1.5281
248.17	1.5259
249.17	1.5228
250.17	1.5210
251.17	1.5194
252.17	1.5172
253.17	1.5157
254.17	1.5139
255.17	1.5120
256.17	1.5086
257.17	1.5043
258.17	1.4987
259.17	1.4932
260.17	1.4882
261.17	1.4830
262.17	1.4780
263.17	1.4762
264.17	1.4780
265.17	1.4746
266.17	1.4623
267.17	1.4490
268.17	1.4407
269.17	1.4367
270.17	1.4348
271.17	1.4299
272.17	1.4246
273.17	1.4209
274.17	1.4166
275.17	1.4114
276.17	1.4058
277.17	1.4012
278.17	1.3972
279.17	1.3928
280.17	1.3894
281.17	1.3867
282.17	1.3845
283.17	1.3814
284.17	1.3765
285.17	1.3737
286.17	1.3737
287.17	1.3752
288.17	1.3774
289.17	1.3805
290.17	1.3845
291.17	1.3873
292.17	1.3882
293.17	1.3864
294.17	1.3845
295.17	1.3820
296.17	1.3796
297.17	1.3777
298.17	1.3731
299.17	1.3709
300.17	1.3709
301.17	1.3685
302.17	1.3669
303.17	1.3691
304.17	1.3731
305.17	1.3765
306.17	1.3799
307.17	1.3842
308.17	1.3873
309.17	1.3894
310.17	1.3941
311.17	1.3996
312.17	1.4043
313.17	1.4086
314.17	1.4126
315.17	1.4219
316.17	1.4249
317.17	1.4237
318.17	1.4225
319.17	1.4237
320.17	1.4268
321.17	1.4305
322.17	1.4327
323.17	1.4348
324.17	1.4385
325.17	1.4675
326.17	2.3226
327.17	6.7244
328.17	15.7760
329.17	28.0813
330.17	41.7865
331.17	55.7180
332.17	67.5297
333.17	62.9835
334.17	41.8205
335.17	22.3685
336.17	10.8918
337.17	5.4803
338.17	3.2188
339.17	2.2995
340.17	1.8988
341.17	1.7022
342.17	1.5963
343.17	1.5373
344.17	1.5068
345.17	1.4904
346.17	1.4780
347.17	1.4654
348.17	1.4567
349.17	1.4518
350.17	1.4490
351.17	1.4450
352.17	1.4416
353.17	1.4407
354.17	1.4388
355.17	1.4373
356.17	1.4395
357.17	1.4413
358.17	1.4425
359.17	1.4407
360.17	1.4364
361.17	1.4320
362.17	1.4302
363.17	1.4290
364.17	1.4259
365.17	1.4240
366.17	1.4231
367.17	1.4225
368.17	1.4225
369.17	1.4231
370.00	1.4231

File: blei-50k-m-kuehl.txt
Filename:	C:\Program Files\Pyris\Data\F-Praktikum\WS1819\BA-C-04\blei_50k-m.dsd

Temperature (°C)	Heat Flow Endo Up (mW)
369.83	1.4231
368.83	1.6694
367.83	3.4877
366.83	5.0410
365.83	4.3807
364.83	2.4128
363.83	0.4791
362.83	-0.8832
361.83	-1.7231
360.83	-2.2368
359.83	-2.5495
358.83	-2.7462
357.83	-2.8814
356.83	-2.9592
355.83	-2.9993
354.83	-3.0218
353.83	-3.0382
352.83	-3.0536
351.83	-3.0691
350.83	-3.0857
349.83	-3.1027
348.83	-3.1197
347.83	-3.1364
346.83	-3.1527
345.83	-3.1672
344.83	-3.1503
343.83	-3.1407
342.83	-3.1716
341.83	-3.2108
340.83	-3.2422
339.83	-3.2639
338.83	-3.2805
337.83	-3.2957
336.83	-3.3108
335.83	-3.3256
334.83	-3.3407
333.83	-3.3555
332.83	-3.3707
331.83	-3.3836
330.83	-3.3951
329.83	-3.4083
328.83	-3.4235
327.83	-3.4377
326.83	-3.4500
325.83	-3.4617
324.83	-3.4744
323.83	-3.4877
322.83	-3.5009
321.83	-3.5154
320.83	-3.5309
319.83	-3.5460
318.83	-3.5596
317.83	-3.5722
316.83	-3.5852
315.83	-3.5985
314.83	-3.7136
313.83	-13.9794
312.83	-40.3483
311.83	-65.4855
310.83	-81.3526
309.83	-74.4843
308.83	-48.5189
307.83	-25.8179
306.83	-13.1283
305.83	-7.5189
304.83	-5.3309
303.83	-4.4900
302.83	-4.1288
301.83	-3.9473
300.83	-3.8498
299.83	-3.7994
298.83	-3.7772
297.83	-3.7698
296.83	-3.7695
295.83	-3.7738
294.83	-3.7797
293.83	-3.7865
292.83	-3.7951
291.83	-3.8028
290.83	-3.8106
289.83	-3.8192
288.83	-3.8285
287.83	-3.8374
286.83	-3.8467
285.83	-3.8550
284.83	-3.8624
283.83	-3.8711
282.83	-3.8794
281.83	-3.8877
280.83	-3.8945
279.83	-3.9007
278.83	-3.9081
277.83	-3.9149
276.83	-3.9214
275.83	-3.9272
274.83	-3.9337
273.83	-3.9418
272.83	-3.9501
271.83	-3.9578
270.83	-3.9655
269.83	-3.9732
268.83	-3.9788
267.83	-3.9844
266.83	-3.9893
265.83	-3.9949
264.83	-4.0004
263.83	-4.0057
262.83	-4.0057
261.83	-4.0100
260.83	-4.0103
259.83	-4.0146
258.83	-4.0251
257.83	-4.0347
256.83	-4.0405
255.83	-4.0449
254.83	-4.0498
253.83	-4.0560
252.83	-4.0615
251.83	-4.0665
250.83	-4.0720
249.83	-4.0770
248.83	-4.0813
247.83	-4.0865
246.83	-4.0915
245.83	-4.0955
244.83	-4.0995
243.83	-4.1038
242.83	-4.1069
241.83	-4.1103
240.83	-4.1140
239.83	-4.1180
238.83	-4.1217
237.83	-4.1245
236.83	-4.1291
235.83	-4.1331
234.83	-4.1369
233.83	-4.1390
232.83	-4.1415
231.83	-4.1446
230.83	-4.1473
229.83	-4.1511
228.83	-4.1538
227.83	-4.1566
226.83	-4.1597
225.83	-4.1622
224.83	-4.1634
223.83	-4.1637
222.83	-4.1631
221.83	-4.1646
220.83	-4.1671
219.83	-4.1699
218.83	-4.1720
217.83	-4.1739
216.83	-4.1739
215.83	-4.1764
214.83	-4.1785
213.83	-4.1801
212.83	-4.1832
211.83	-4.1859
210.83	-4.1862
209.83	-4.1856
208.83	-4.1853
207.83	-4.1856
206.83	-4.1847
205.83	-4.1841
204.83	-4.1841
203.83	-4.1825
202.83	-4.1807
201.83	-4.1791
200.83	-4.1788
199.83	-4.1782
198.83	-4.1757
197.83	-4.1727
196.83	-4.1702
195.83	-4.1674
194.83	-4.1643
193.83	-4.1622
192.83	-4.1615
191.83	-4.1600
190.83	-4.1575
189.83	-4.1551
188.83	-4.1498
187.83	-4.1458
186.83	-4.1424
185.83	-4.1384
184.83	-4.1378
183.83	-4.1402
182.83	-4.1359
181.83	-4.1288
180.83	-4.1208
179.83	-4.1128
178.83	-4.1063
177.83	-4.1017
176.83	-4.0976
175.83	-4.0912
174.83	-4.0850
173.83	-4.0801
172.83	-4.0745
171.83	-4.0696
170.83	-4.0655
169.83	-4.0603
168.83	-4.0541
167.83	-4.0470
166.83	-4.0405
165.83	-4.0334
164.83	-4.0257
163.83	-4.0195
162.83	-4.0121
161.83	-4.0035
160.83	-3.9945
159.83	-3.9862
158.83	-3.9769
157.83	-3.9671
156.83	-3.9569
155.83	-3.9479
154.83	-3.9399
153.83	-3.9306
152.83	-3.9195
151.83	-3.9084
150.83	-3.8976
149.83	-3.8862
148.83	-3.8748
147.83	-3.8624
146.83	-3.8482
145.83	-3.8337
144.83	-3.8198
143.83	-3.8069
142.83	-3.7936
141.83	-3.7803
140.83	-3.7658
139.83	-3.7510
138.83	-3.7355
137.83	-3.7204
136.83	-3.7056
135.83	-3.6908
134.83	-3.6735
133.83	-3.6568
132.83	-3.6405
131.83	-3.6219
130.83	-3.6037
129.83	-3.5855
128.83	-3.5676
127.83	-3.5494
126.83	-3.5312
125.83	-3.5142
124.83	-3.4948
123.83	-3.4741
122.83	-3.4528
121.83	-3.4296
120.83	-3.4059
119.83	-3.3809
118.83	-3.3562
117.83	-3.3312
116.83	-3.3037
115.83	-3.2737
114.83	-3.2432
113.83	-3.2114
112.83	-3.1790
111.83	-3.1441
110.83	-3.1070
109.83	-3.0681
108.83	-3.0274
107.83	-2.9839
106.83	-2.9363
105.83	-2.8842
104.83	-2.8301
103.83	-2.7755
102.83	-2.7190
101.83	-2.6600
100.83	-2.5992
100.00	-2.5363